<?xml version="1.0" encoding="UTF-8"?>

<ODM xmlns="http://www.cdisc.org/ns/odm/v1.3" xmlns:xs="http://www.w3.org/2001/XMLSchema-instance" xmlns:nciodm="http://ncicb.nci.nih.gov/xml/odm/EVS/CDISC" FileType="Snapshot" FileOID="CDISC_CT.ADaM.2021-12-17" Granularity="Metadata" CreationDateTime="2021-12-17T11:05:33" AsOfDateTime="2021-12-17T00:00:00" ODMVersion="1.3.2" Originator="CDISC XML Technologies Team (Terminology2ODM converter)" SourceSystem="NCI Thesaurus" SourceSystemVersion="2021-12-17" nciodm:Context="Submission" nciodm:ControlledTerminologyVersion="1.2.0">
    <Study OID="CDISC_CT.ADaM.2021-12-17">
        <GlobalVariables>
            <StudyName>CDISC ADaM Controlled Terminology</StudyName>
            <StudyDescription>CDISC ADaM Controlled Terminology, 2021-12-17</StudyDescription>
            <ProtocolName>CDISC ADaM Controlled Terminology</ProtocolName>
        </GlobalVariables>
        <MetaDataVersion OID="CDISC_CT_MetaDataVersion.ADaM.2021-12-17" Name="CDISC ADaM Controlled Terminology" Description="CDISC ADaM Controlled Terminology, 2021-12-17">
            <CodeList OID="CL.C81223.DATEFL" Name="Date Imputation Flag" DataType="text" nciodm:ExtCodeID="C81223" nciodm:CodeListExtensible="No">
                <Description>
                    <TranslatedText xml:lang="en">Date Imputation Flag: Indicates the level of imputation reflected in a date value.</TranslatedText>
                </Description>
                <EnumeratedItem CodedValue="D" nciodm:ExtCodeID="C81212">
                    <nciodm:CDISCDefinition>Day Imputed: Day is imputed.</nciodm:CDISCDefinition>
                    <nciodm:PreferredTerm>Day Imputed</nciodm:PreferredTerm>
                </EnumeratedItem>
                <EnumeratedItem CodedValue="M" nciodm:ExtCodeID="C81211">
                    <nciodm:CDISCDefinition>Month Imputed: Month and day are imputed.</nciodm:CDISCDefinition>
                    <nciodm:PreferredTerm>Month Day Imputed</nciodm:PreferredTerm>
                </EnumeratedItem>
                <EnumeratedItem CodedValue="Y" nciodm:ExtCodeID="C81210">
                    <nciodm:CDISCDefinition>Year Imputed: Entire date (year, month and day) is imputed.</nciodm:CDISCDefinition>
                    <nciodm:PreferredTerm>Year Month Day Imputed</nciodm:PreferredTerm>
                </EnumeratedItem>
                <nciodm:CDISCSubmissionValue>DATEFL</nciodm:CDISCSubmissionValue>
                <nciodm:CDISCSynonym>Date Imputation Flag</nciodm:CDISCSynonym>
                <nciodm:PreferredTerm>CDISC ADaM Date Imputation Flag Terminology</nciodm:PreferredTerm>
            </CodeList>
            <CodeList OID="CL.C81224.DTYPE" Name="Derivation Type" DataType="text" nciodm:ExtCodeID="C81224" nciodm:CodeListExtensible="Yes">
                <Description>
                    <TranslatedText xml:lang="en">Derivation Type: Analysis value derivation method.</TranslatedText>
                </Description>
                <EnumeratedItem CodedValue="AVERAGE" nciodm:ExtCodeID="C81209">
                    <nciodm:CDISCSynonym>Average</nciodm:CDISCSynonym>
                    <nciodm:CDISCDefinition>A data derivation or imputation technique which sets the analysis value on the record to the subject&apos;s average value over a defined set of records.</nciodm:CDISCDefinition>
                    <nciodm:PreferredTerm>Average of Value Derivation Technique</nciodm:PreferredTerm>
                </EnumeratedItem>
                <EnumeratedItem CodedValue="BC" nciodm:ExtCodeID="C92225">
                    <nciodm:CDISCSynonym>Best Case</nciodm:CDISCSynonym>
                    <nciodm:CDISCDefinition>A data derivation or imputation technique which sets the analysis value on the record to the best possible outcome.</nciodm:CDISCDefinition>
                    <nciodm:PreferredTerm>Best Case Imputation Technique</nciodm:PreferredTerm>
                </EnumeratedItem>
                <EnumeratedItem CodedValue="BLOCF" nciodm:ExtCodeID="C81201">
                    <nciodm:CDISCSynonym>Baseline Observation Carried Forward</nciodm:CDISCSynonym>
                    <nciodm:CDISCDefinition>A data derivation or imputation technique which sets the analysis value on the record to the subject&apos;s non-missing baseline observation.</nciodm:CDISCDefinition>
                    <nciodm:PreferredTerm>Baseline Observation Carried Forward Imputation Technique</nciodm:PreferredTerm>
                </EnumeratedItem>
                <EnumeratedItem CodedValue="BOC" nciodm:ExtCodeID="C132340">
                    <nciodm:CDISCSynonym>Best Observed Case</nciodm:CDISCSynonym>
                    <nciodm:CDISCDefinition>A data derivation or imputation technique which sets the analysis value on the record to the best outcome recorded within a subject.</nciodm:CDISCDefinition>
                    <nciodm:PreferredTerm>Best Observed Case Imputation Technique</nciodm:PreferredTerm>
                </EnumeratedItem>
                <EnumeratedItem CodedValue="BOCF" nciodm:ExtCodeID="C92226">
                    <nciodm:CDISCSynonym>Best Observation Carried Forward</nciodm:CDISCSynonym>
                    <nciodm:CDISCDefinition>A data derivation or imputation technique which sets the analysis value on the record to the subject&apos;s previous best-case non-missing value.</nciodm:CDISCDefinition>
                    <nciodm:PreferredTerm>Best Observation Carried Forward Imputation Technique</nciodm:PreferredTerm>
                </EnumeratedItem>
                <EnumeratedItem CodedValue="COPY" nciodm:ExtCodeID="C184383">
                    <nciodm:CDISCDefinition>A technique that uses assignment logic to duplicate an analysis value to be used in additional evaluations.</nciodm:CDISCDefinition>
                    <nciodm:PreferredTerm>Copy Duplication Imputation Technique</nciodm:PreferredTerm>
                </EnumeratedItem>
                <EnumeratedItem CodedValue="EXTRAP" nciodm:ExtCodeID="C139176">
                    <nciodm:CDISCSynonym>Extrapolation</nciodm:CDISCSynonym>
                    <nciodm:CDISCDefinition>A data derivation or imputation technique which sets the analysis value on the record to an estimation of a value based on extending a known sequence of values.</nciodm:CDISCDefinition>
                    <nciodm:PreferredTerm>Extrapolation Imputation Technique</nciodm:PreferredTerm>
                </EnumeratedItem>
                <EnumeratedItem CodedValue="HALFLLOQ" nciodm:ExtCodeID="C170546">
                    <nciodm:CDISCSynonym>One Half of Lower Limit of Quantification</nciodm:CDISCSynonym>
                    <nciodm:CDISCDefinition>A data derivation or imputation technique which sets the analysis value on the record to one half of the lower limit of quantification of a test.</nciodm:CDISCDefinition>
                    <nciodm:PreferredTerm>One Half of Lower Limit of Quantification Derivation Technique</nciodm:PreferredTerm>
                </EnumeratedItem>
                <EnumeratedItem CodedValue="INTERP" nciodm:ExtCodeID="C81208">
                    <nciodm:CDISCSynonym>Interpolation</nciodm:CDISCSynonym>
                    <nciodm:CDISCDefinition>A data derivation or imputation technique which sets the analysis value on the record to a function of known values to estimate a value within the range.</nciodm:CDISCDefinition>
                    <nciodm:PreferredTerm>Interpolation Imputation Technique</nciodm:PreferredTerm>
                </EnumeratedItem>
                <EnumeratedItem CodedValue="LLOD" nciodm:ExtCodeID="C105701">
                    <nciodm:CDISCSynonym>Lower Limit of Detection</nciodm:CDISCSynonym>
                    <nciodm:CDISCDefinition>A data derivation or imputation technique which sets the analysis value on the record to the lower limit of detection of a test.</nciodm:CDISCDefinition>
                    <nciodm:PreferredTerm>Detection Limit</nciodm:PreferredTerm>
                </EnumeratedItem>
                <EnumeratedItem CodedValue="LLOQ" nciodm:ExtCodeID="C170543">
                    <nciodm:CDISCSynonym>Lower Limit of Quantification</nciodm:CDISCSynonym>
                    <nciodm:CDISCDefinition>A data derivation or imputation technique which sets the analysis value on the record to the lower limit of quantification of a test.</nciodm:CDISCDefinition>
                    <nciodm:PreferredTerm>Lower Limit of Quantification Derivation Technique</nciodm:PreferredTerm>
                </EnumeratedItem>
                <EnumeratedItem CodedValue="LOCF" nciodm:ExtCodeID="C81198">
                    <nciodm:CDISCSynonym>Last Observation Carried Forward</nciodm:CDISCSynonym>
                    <nciodm:CDISCDefinition>A data derivation or imputation technique which sets the analysis value on the record to the subject&apos;s previous non-missing value.</nciodm:CDISCDefinition>
                    <nciodm:PreferredTerm>Last Observation Carried Forward Imputation Technique</nciodm:PreferredTerm>
                </EnumeratedItem>
                <EnumeratedItem CodedValue="LOV" nciodm:ExtCodeID="C132341">
                    <nciodm:CDISCSynonym>Last Observed Value</nciodm:CDISCSynonym>
                    <nciodm:CDISCDefinition>A data derivation or imputation technique which sets the analysis value on the record to the subject&apos;s last recorded non-missing observation.</nciodm:CDISCDefinition>
                    <nciodm:PreferredTerm>Last Observed Value Imputation Technique</nciodm:PreferredTerm>
                </EnumeratedItem>
                <EnumeratedItem CodedValue="LVPD" nciodm:ExtCodeID="C132342">
                    <nciodm:CDISCSynonym>Last Value Prior to Dosing</nciodm:CDISCSynonym>
                    <nciodm:CDISCDefinition>A data derivation or imputation technique which sets the analysis value on the record to the subject&apos;s last observed value prior to the start of study treatment.</nciodm:CDISCDefinition>
                    <nciodm:PreferredTerm>Last Value Prior to Dosing Imputation Technique</nciodm:PreferredTerm>
                </EnumeratedItem>
                <EnumeratedItem CodedValue="MAXIMUM" nciodm:ExtCodeID="C82868">
                    <nciodm:CDISCSynonym>Maximum</nciodm:CDISCSynonym>
                    <nciodm:CDISCDefinition>A data derivation or imputation technique which sets the analysis value on the record to the subject&apos;s maximum value over a defined set of records.</nciodm:CDISCDefinition>
                    <nciodm:PreferredTerm>Maximum Value Derivation Technique</nciodm:PreferredTerm>
                </EnumeratedItem>
                <EnumeratedItem CodedValue="MINIMUM" nciodm:ExtCodeID="C82867">
                    <nciodm:CDISCSynonym>Minimum</nciodm:CDISCSynonym>
                    <nciodm:CDISCDefinition>A data derivation or imputation technique which sets the analysis value on the record to the subject&apos;s minimum value over a defined set of records.</nciodm:CDISCDefinition>
                    <nciodm:PreferredTerm>Minimum Value Derivation Technique</nciodm:PreferredTerm>
                </EnumeratedItem>
                <EnumeratedItem CodedValue="ML" nciodm:ExtCodeID="C53331">
                    <nciodm:CDISCSynonym>Maximum Likelihood</nciodm:CDISCSynonym>
                    <nciodm:CDISCDefinition>A data derivation or imputation technique which sets the analysis value on the record to the estimate that maximizes the probability of observing what has in fact been observed.</nciodm:CDISCDefinition>
                    <nciodm:PreferredTerm>Maximum Likelihood Estimation</nciodm:PreferredTerm>
                </EnumeratedItem>
                <EnumeratedItem CodedValue="MOTH" nciodm:ExtCodeID="C81204">
                    <nciodm:CDISCSynonym>Mean of Other Group</nciodm:CDISCSynonym>
                    <nciodm:CDISCDefinition>A data derivation or imputation technique which sets the analysis value on the record to the mean value from a comparator or reference group.</nciodm:CDISCDefinition>
                    <nciodm:PreferredTerm>Mean of Other Group Imputation Technique</nciodm:PreferredTerm>
                </EnumeratedItem>
                <EnumeratedItem CodedValue="MOV" nciodm:ExtCodeID="C81207">
                    <nciodm:CDISCSynonym>Mean Observed Value in a Group</nciodm:CDISCSynonym>
                    <nciodm:CDISCDefinition>A data derivation or imputation technique which sets the analysis value on the record to the mean value observed in a group of subjects.</nciodm:CDISCDefinition>
                    <nciodm:PreferredTerm>Mean Observed Value in a Group Imputation Technique</nciodm:PreferredTerm>
                </EnumeratedItem>
                <EnumeratedItem CodedValue="PHANTOM" nciodm:ExtCodeID="C170545">
                    <nciodm:CDISCSynonym>Phantom Record</nciodm:CDISCSynonym>
                    <nciodm:CDISCDefinition>A technique that creates a record with a missing analysis value when there is no observed record for a given analysis visit or analysis timepoint.</nciodm:CDISCDefinition>
                    <nciodm:PreferredTerm>Phantom Record Imputation Technique</nciodm:PreferredTerm>
                </EnumeratedItem>
                <EnumeratedItem CodedValue="POCF" nciodm:ExtCodeID="C81205">
                    <nciodm:CDISCSynonym>Penultimate Observation Carried Forward</nciodm:CDISCSynonym>
                    <nciodm:CDISCDefinition>A data derivation or imputation technique which sets the analysis value on the record to the subject&apos;s next-to-last non-missing value.</nciodm:CDISCDefinition>
                    <nciodm:PreferredTerm>Penultimate Observation Carried Forward Imputation Technique</nciodm:PreferredTerm>
                </EnumeratedItem>
                <EnumeratedItem CodedValue="SOCF" nciodm:ExtCodeID="C81200">
                    <nciodm:CDISCSynonym>Screening Observation Carried Forward</nciodm:CDISCSynonym>
                    <nciodm:CDISCDefinition>A data derivation or imputation technique which sets the analysis value on the record to the subject&apos;s non-missing screening observation.</nciodm:CDISCDefinition>
                    <nciodm:PreferredTerm>Screening Observation Carried Forward Imputation Technique</nciodm:PreferredTerm>
                </EnumeratedItem>
                <EnumeratedItem CodedValue="ULOD" nciodm:ExtCodeID="C174264">
                    <nciodm:CDISCSynonym>Upper Limit of Detection</nciodm:CDISCSynonym>
                    <nciodm:CDISCDefinition>A data derivation or imputation technique which sets the analysis value on the record to the upper limit of detection of a test.</nciodm:CDISCDefinition>
                    <nciodm:PreferredTerm>Upper Limit of Detection Imputation Technique</nciodm:PreferredTerm>
                </EnumeratedItem>
                <EnumeratedItem CodedValue="ULOQ" nciodm:ExtCodeID="C170544">
                    <nciodm:CDISCSynonym>Upper Limit of Quantification</nciodm:CDISCSynonym>
                    <nciodm:CDISCDefinition>A data derivation or imputation technique which sets the analysis value on the record to the upper limit of quantification of a test.</nciodm:CDISCDefinition>
                    <nciodm:PreferredTerm>Upper Limit of Quantification Derivation Technique</nciodm:PreferredTerm>
                </EnumeratedItem>
                <EnumeratedItem CodedValue="WC" nciodm:ExtCodeID="C81203">
                    <nciodm:CDISCSynonym>Worst Case</nciodm:CDISCSynonym>
                    <nciodm:CDISCDefinition>A data derivation or imputation technique which sets the analysis value on the record to the worst possible outcome.</nciodm:CDISCDefinition>
                    <nciodm:PreferredTerm>Worst Case Imputation Technique</nciodm:PreferredTerm>
                </EnumeratedItem>
                <EnumeratedItem CodedValue="WOC" nciodm:ExtCodeID="C132343">
                    <nciodm:CDISCSynonym>Worst Observed Case</nciodm:CDISCSynonym>
                    <nciodm:CDISCDefinition>A data derivation or imputation technique which sets the analysis value on the record to the worst recorded outcome within a subject.</nciodm:CDISCDefinition>
                    <nciodm:PreferredTerm>Worst Observed Case Imputation Technique</nciodm:PreferredTerm>
                </EnumeratedItem>
                <EnumeratedItem CodedValue="WOCF" nciodm:ExtCodeID="C81199">
                    <nciodm:CDISCSynonym>Worst Observed Value Carried Forward</nciodm:CDISCSynonym>
                    <nciodm:CDISCDefinition>A data derivation or imputation technique which sets the analysis value on the record to the subject&apos;s worst-case non-missing observation.</nciodm:CDISCDefinition>
                    <nciodm:PreferredTerm>Worst Observation Carried Forward Imputation Technique</nciodm:PreferredTerm>
                </EnumeratedItem>
                <EnumeratedItem CodedValue="WOV" nciodm:ExtCodeID="C81206">
                    <nciodm:CDISCSynonym>Worst Observed Value in a Group</nciodm:CDISCSynonym>
                    <nciodm:CDISCDefinition>A data derivation or imputation technique which sets the analysis value on the record to the worst value observed in a group of subjects.</nciodm:CDISCDefinition>
                    <nciodm:PreferredTerm>Worst Observed Value in a Group Imputation Technique</nciodm:PreferredTerm>
                </EnumeratedItem>
                <nciodm:CDISCSubmissionValue>DTYPE</nciodm:CDISCSubmissionValue>
                <nciodm:CDISCSynonym>Derivation Type</nciodm:CDISCSynonym>
                <nciodm:PreferredTerm>CDISC ADaM Derivation Type Terminology</nciodm:PreferredTerm>
            </CodeList>
            <CodeList OID="CL.C172334.GAD02PC" Name="Generalized Anxiety Disorder - 7 Version 2 Questionnaire Parameter Code" DataType="text" nciodm:ExtCodeID="C172334" nciodm:CodeListExtensible="No">
                <Description>
                    <TranslatedText xml:lang="en">A parameter code codelist for the Generalized Anxiety Disorder - 7 Version 2 Questionnaire (GAD-7 V2) to support the calculation of total score in ADaM.</TranslatedText>
                </Description>
                <EnumeratedItem CodedValue="GAD02TS" nciodm:ExtCodeID="C172451">
                    <nciodm:CDISCSynonym>GAD02-Total Score - Analysis</nciodm:CDISCSynonym>
                    <nciodm:CDISCDefinition>Generalized Anxiety Disorder - 7 Version 2 - Total score used for analysis.</nciodm:CDISCDefinition>
                    <nciodm:PreferredTerm>Generalized Anxiety Disorder - 7 Version 2 - Analysis</nciodm:PreferredTerm>
                </EnumeratedItem>
                <nciodm:CDISCSubmissionValue>GAD02PC</nciodm:CDISCSubmissionValue>
                <nciodm:CDISCSynonym>Generalized Anxiety Disorder - 7 Version 2 Questionnaire Parameter Code</nciodm:CDISCSynonym>
                <nciodm:PreferredTerm>CDISC ADaM Generalized Anxiety Disorder-7 Version 2 Questionnaire Parameter Code Terminology</nciodm:PreferredTerm>
            </CodeList>
            <CodeList OID="CL.C172335.GAD02PN" Name="Generalized Anxiety Disorder - 7 Version 2 Questionnaire Parameter Name" DataType="text" nciodm:ExtCodeID="C172335" nciodm:CodeListExtensible="No">
                <Description>
                    <TranslatedText xml:lang="en">A parameter name codelist for the Generalized Anxiety Disorder - 7 Version 2 Questionnaire (GAD-7 V2) to support the calculation of total score in ADaM.</TranslatedText>
                </Description>
                <EnumeratedItem CodedValue="GAD02-Total Score - Analysis" nciodm:ExtCodeID="C172451">
                    <nciodm:CDISCSynonym>GAD02-Total Score - Analysis</nciodm:CDISCSynonym>
                    <nciodm:CDISCDefinition>Generalized Anxiety Disorder - 7 Version 2 - Total score used for analysis.</nciodm:CDISCDefinition>
                    <nciodm:PreferredTerm>Generalized Anxiety Disorder - 7 Version 2 - Analysis</nciodm:PreferredTerm>
                </EnumeratedItem>
                <nciodm:CDISCSubmissionValue>GAD02PN</nciodm:CDISCSubmissionValue>
                <nciodm:CDISCSynonym>Generalized Anxiety Disorder - 7 Version 2 Questionnaire Parameter Name</nciodm:CDISCSynonym>
                <nciodm:PreferredTerm>CDISC ADaM Generalized Anxiety Disorder-7 Version 2 Questionnaire Parameter Name Terminology</nciodm:PreferredTerm>
            </CodeList>
            <CodeList OID="CL.C158114.GDS02PC" Name="Geriatric Depression Scale Short Form Questionnaire Parameter Code" DataType="text" nciodm:ExtCodeID="C158114" nciodm:CodeListExtensible="No">
                <Description>
                    <TranslatedText xml:lang="en">A parameter code codelist for the Geriatric Depression Scale Short Form questionnaire (GDS02) to support the calculation of total score in ADaM.</TranslatedText>
                </Description>
                <EnumeratedItem CodedValue="GDS02TS" nciodm:ExtCodeID="C158155">
                    <nciodm:CDISCSynonym>GDS02-Total Score - Analysis</nciodm:CDISCSynonym>
                    <nciodm:CDISCDefinition>Geriatric Depression Scale Short Form - Total score used for analysis.</nciodm:CDISCDefinition>
                    <nciodm:PreferredTerm>Geriatric Depression Scale Short Form - Total Score</nciodm:PreferredTerm>
                </EnumeratedItem>
                <nciodm:CDISCSubmissionValue>GDS02PC</nciodm:CDISCSubmissionValue>
                <nciodm:CDISCSynonym>Geriatric Depression Scale Short Form Questionnaire Parameter Code</nciodm:CDISCSynonym>
                <nciodm:PreferredTerm>CDISC ADaM Geriatric Depression Scale Short Form Questionnaire Parameter Code Terminology</nciodm:PreferredTerm>
            </CodeList>
            <CodeList OID="CL.C158115.GDS02PN" Name="Geriatric Depression Scale Short Form Questionnaire Parameter Name" DataType="text" nciodm:ExtCodeID="C158115" nciodm:CodeListExtensible="No">
                <Description>
                    <TranslatedText xml:lang="en">A parameter name codelist for the Geriatric Depression Scale Short Form questionnaire (GDS02) to support the calculation of total score in ADaM.</TranslatedText>
                </Description>
                <EnumeratedItem CodedValue="GDS02-Total Score - Analysis" nciodm:ExtCodeID="C158155">
                    <nciodm:CDISCSynonym>GDS02-Total Score - Analysis</nciodm:CDISCSynonym>
                    <nciodm:CDISCDefinition>Geriatric Depression Scale Short Form - Total score used for analysis.</nciodm:CDISCDefinition>
                    <nciodm:PreferredTerm>Geriatric Depression Scale Short Form - Total Score</nciodm:PreferredTerm>
                </EnumeratedItem>
                <nciodm:CDISCSubmissionValue>GDS02PN</nciodm:CDISCSubmissionValue>
                <nciodm:CDISCSynonym>Geriatric Depression Scale Short Form Questionnaire Parameter Name</nciodm:CDISCSynonym>
                <nciodm:PreferredTerm>CDISC ADaM Geriatric Depression Scale Short Form Questionnaire Parameter Name Terminology</nciodm:PreferredTerm>
            </CodeList>
            <CodeList OID="CL.C81225.PARAMTYP" Name="Parameter Type" DataType="text" nciodm:ExtCodeID="C81225" nciodm:CodeListExtensible="No">
                <Description>
                    <TranslatedText xml:lang="en">Parameter Type: Indicates whether the parameter is derived as a function of one or more other parameters.</TranslatedText>
                </Description>
                <EnumeratedItem CodedValue="DERIVED" nciodm:ExtCodeID="C81197">
                    <nciodm:CDISCDefinition>Derived: Indicates that a parameter is derived as a function of one or more other parameters.</nciodm:CDISCDefinition>
                    <nciodm:PreferredTerm>Derived Flag</nciodm:PreferredTerm>
                </EnumeratedItem>
                <nciodm:CDISCSubmissionValue>PARAMTYP</nciodm:CDISCSubmissionValue>
                <nciodm:CDISCSynonym>Parameter Type</nciodm:CDISCSynonym>
                <nciodm:PreferredTerm>CDISC ADaM Parameter Type Terminology</nciodm:PreferredTerm>
            </CodeList>
            <CodeList OID="CL.C165644.POOLINT" Name="Pool for Integration" DataType="text" nciodm:ExtCodeID="C165644" nciodm:CodeListExtensible="Yes">
                <Description>
                    <TranslatedText xml:lang="en">Terminology relevant to the name of the Pool, often defined in the integrated statistical analysis plan, which identifies the combination of subjects&apos; clinical trial experience and will be the focus of the integrated analysis.</TranslatedText>
                </Description>
                <EnumeratedItem CodedValue="OVERALL" nciodm:ExtCodeID="C165858">
                    <nciodm:CDISCDefinition>The pool that includes data across all studies within which the subject has participated, used for the overall integrated analysis.</nciodm:CDISCDefinition>
                    <nciodm:PreferredTerm>Overall Pooled Data</nciodm:PreferredTerm>
                </EnumeratedItem>
                <nciodm:CDISCSubmissionValue>POOLINT</nciodm:CDISCSubmissionValue>
                <nciodm:CDISCSynonym>Pool for Integration</nciodm:CDISCSynonym>
                <nciodm:PreferredTerm>CDISC ADaM Pool for Integration Terminology</nciodm:PreferredTerm>
            </CodeList>
            <CodeList OID="CL.C124296.SBJTSTAT" Name="Subject Trial Status" DataType="text" nciodm:ExtCodeID="C124296" nciodm:CodeListExtensible="Yes">
                <Description>
                    <TranslatedText xml:lang="en">Indicates the status of the subject in the trial.</TranslatedText>
                </Description>
                <EnumeratedItem CodedValue="COMPLETED" nciodm:ExtCodeID="C25250">
                    <nciodm:CDISCDefinition>To possess every necessary or normal part or component or step; having come or been brought to a conclusion. (NCI)</nciodm:CDISCDefinition>
                    <nciodm:PreferredTerm>Complete</nciodm:PreferredTerm>
                </EnumeratedItem>
                <EnumeratedItem CodedValue="DISCONTINUED" nciodm:ExtCodeID="C25484">
                    <nciodm:CDISCDefinition>To stop or end, permanently or temporarily.</nciodm:CDISCDefinition>
                    <nciodm:PreferredTerm>Discontinue</nciodm:PreferredTerm>
                </EnumeratedItem>
                <EnumeratedItem CodedValue="ONGOING" nciodm:ExtCodeID="C53279">
                    <nciodm:CDISCSynonym>Continuous</nciodm:CDISCSynonym>
                    <nciodm:CDISCDefinition>Remain in force or carry on without letup; keep or maintain in unaltered condition; exist in time or space without stop or interruption. (NCI)</nciodm:CDISCDefinition>
                    <nciodm:PreferredTerm>Continue</nciodm:PreferredTerm>
                </EnumeratedItem>
                <nciodm:CDISCSubmissionValue>SBJTSTAT</nciodm:CDISCSubmissionValue>
                <nciodm:CDISCSynonym>Subject Trial Status</nciodm:CDISCSynonym>
                <nciodm:PreferredTerm>CDISC ADaM Subject Trial Status Terminology</nciodm:PreferredTerm>
            </CodeList>
            <CodeList OID="CL.C81226.TIMEFL" Name="Time Imputation Flag" DataType="text" nciodm:ExtCodeID="C81226" nciodm:CodeListExtensible="No">
                <Description>
                    <TranslatedText xml:lang="en">Time Imputation Flag: Indicates the level of imputation reflected in a time value.</TranslatedText>
                </Description>
                <EnumeratedItem CodedValue="H" nciodm:ExtCodeID="C81213">
                    <nciodm:CDISCDefinition>Hours Imputed: Entire time (hours, minutes and seconds) is imputed.</nciodm:CDISCDefinition>
                    <nciodm:PreferredTerm>Hours Minutes Seconds Imputed</nciodm:PreferredTerm>
                </EnumeratedItem>
                <EnumeratedItem CodedValue="M" nciodm:ExtCodeID="C81214">
                    <nciodm:CDISCDefinition>Minutes Imputed: Minutes and seconds are imputed.</nciodm:CDISCDefinition>
                    <nciodm:PreferredTerm>Minutes Seconds Imputed</nciodm:PreferredTerm>
                </EnumeratedItem>
                <EnumeratedItem CodedValue="S" nciodm:ExtCodeID="C81215">
                    <nciodm:CDISCDefinition>Seconds Imputed: Seconds are imputed.</nciodm:CDISCDefinition>
                    <nciodm:PreferredTerm>Seconds Imputed</nciodm:PreferredTerm>
                </EnumeratedItem>
                <nciodm:CDISCSubmissionValue>TIMEFL</nciodm:CDISCSubmissionValue>
                <nciodm:CDISCSynonym>Time Imputation Flag</nciodm:CDISCSynonym>
                <nciodm:PreferredTerm>CDISC ADaM Time Imputation Flag Terminology</nciodm:PreferredTerm>
            </CodeList>
        </MetaDataVersion>
    </Study>
</ODM>
